Folder: thinks/Model_Linear/www

Note: README.md
**THINKS** are open-source applications for thermal and kinetic analysis. Main purpose was to create a tool for extracting the kinetic data from thermal analysis data (TGA, DSC etc), that comprises all modern methods and is competitive to commerical software. 

More information is available at project page - http://chemphys.space/thinks

Short manual - 

Direct links to the online versions of applications - http://chemphys.space/thinks/#11

File: example_tnaa_tga_2-20.txt
1.Temperature[°C] 1.Time[s] 1.Conversion[-] 1.Conversion_rate[1/s] 2.Temperature[°C] 2.Time[s] 2.Conversion[-] 2.Conversion_rate[1/s] 3.Temperature[°C] 3.Time[s] 3.Conversion[-] 3.Conversion_rate[1/s] 4.Temperature[°C] 4.Time[s] 4.Conversion[-] 4.Conversion_rate[1/s]
78.416 1323.6 -0.0002287 9.931e-05 78.771 634.9998 0.001014 3.922e-05 81.307 435 0.0001468 0.0001443 76.663 279.4002 -0.0008481 0.0002377
79.38274 1352.97 0.0002014 5.449e-05 80.1037 646.9154 0.0009532 -2.9e-05 82.40446 440.0201 0.0003917 -0.0001999 77.7369 282.4243 -0.0006203 -3.557e-05
80.33638 1382.34 1.844e-05 5.296e-05 81.4272 658.831 0.0004824 1.916e-05 83.50788 445.0402 0.000424 -0.0002171 78.80415 285.4484 -1.279e-05 0.001412
81.28971 1411.71 0.0003043 -8.562e-05 82.78173 670.7466 0.0004167 -6.594e-05 84.64009 450.0603 0.0006199 0.0001454 79.92795 288.4726 5.136e-05 0.001138
82.23322 1441.079 0.0002669 -2.337e-07 84.10767 682.6621 7.482e-05 -2.326e-05 85.74696 455.0804 0.0005063 0.0002221 81.0355 291.4967 0.0002396 0.0009325
83.17844 1470.449 0.0006319 2.384e-05 85.4402 694.5777 0.0002141 -4.729e-05 86.86589 460.1005 0.000304 0.0001481 82.16037 294.5208 -0.0003515 0.0001568
84.11762 1499.819 0.0008624 -7.445e-05 86.76709 706.4933 0.0003927 3.439e-05 87.99066 465.1206 0.0004858 -0.0001138 83.28348 297.5449 -9.154e-05 -0.000612
85.08958 1529.189 -0.0001854 -2.38e-05 88.09334 718.4089 0.000281 0.0001584 89.1251 470.1407 0.0001584 0.0003439 84.42268 300.569 -0.0002256 -0.0001238
86.04464 1558.559 0.0004175 6.361e-05 89.40503 730.3245 -0.0001638 9.975e-05 90.25708 475.1608 0.0001767 -0.0001029 85.56127 303.5931 -0.00028 -0.0001214
86.99643 1587.929 0.0009047 8.307e-05 90.72852 742.2401 0.0002657 6.701e-05 91.38482 480.1809 0.0001722 0.0001011 86.73373 306.6173 0.0008366 0.0005775
87.95881 1617.298 0.001918 2.747e-05 92.00123 754.1556 0.0002321 -5.28e-05 92.51418 485.201 0.001034 -9.849e-05 87.9169 309.6414 0.0005943 0.001026
88.90844 1646.668 0.002678 -9.999e-08 93.28549 766.0712 0.0005998 -1.626e-05 93.66611 490.2211 0.00148 0.0001905 89.09993 312.6655 0.0003955 0.0003291
89.86138 1676.038 0.002767 2.818e-05 94.55329 777.9868 0.001044 4.61e-05 94.80167 495.2412 0.002007 -0.0001639 90.2846 315.6896 0.0006905 -0.0009535
90.82575 1705.408 0.003048 3.069e-06 95.86608 789.9024 0.001808 -2.167e-05 95.97675 500.2613 0.00245 4.139e-05 91.49714 318.7137 0.0008485 0.0006335
91.75651 1734.778 0.003845 2.205e-05 97.14934 801.818 0.002183 -6.634e-07 97.13031 505.2814 0.003029 0.0003675 92.69297 321.7378 0.002117 0.0006154
92.70869 1764.148 0.005982 4.219e-05 98.42825 813.7336 0.003398 6.636e-06 98.30516 510.3015 0.003548 2.974e-05 93.92236 324.762 0.001869 0.0009504
93.68552 1793.518 0.007405 4.735e-05 99.71295 825.6491 0.004511 0.0002808 99.47011 515.3216 0.004343 6.747e-09 95.11951 327.7861 0.002679 -0.001504
94.68462 1822.887 0.01014 4.057e-05 100.99 837.5647 0.005768 0.0001317 100.624 520.3417 0.005045 0.0002237 96.36797 330.8102 0.003367 0.0007501
95.70643 1852.257 0.01337 0.0001711 102.242 849.4803 0.008462 0.0002083 101.803 525.3618 0.005671 0.0003498 97.60487 333.8343 0.004274 -0.0001144
96.69841 1881.627 0.01622 0.0002251 103.504 861.3959 0.01073 0.0002593 102.986 530.3819 0.006571 2.694e-06 98.88542 336.8584 0.003992 0.0006006
97.69093 1910.997 0.02012 0.0001148 104.737 873.3115 0.01375 0.0002891 104.164 535.402 0.008171 0.000417 100.149 339.8826 0.004922 -0.000133
98.67645 1940.367 0.02359 0.0001042 105.955 885.2271 0.01823 0.0004177 105.353 540.4221 0.009491 0.000224 101.432 342.9067 0.004931 -0.0001109
99.67929 1969.737 0.02709 0.0001162 107.186 897.1426 0.02279 0.0004211 106.526 545.4422 0.01106 0.0003932 102.717 345.9308 0.005587 -0.0005414
100.669 1999.107 0.03141 0.0001728 108.383 909.0582 0.0293 0.0004001 107.723 550.4623 0.01305 0.0002887 104.017 348.9549 0.006825 3.996e-05
101.662 2028.476 0.03805 0.0002014 109.567 920.9738 0.03558 0.0005657 108.915 555.4824 0.01547 0.0004747 105.309 351.979 0.008073 0.0008156
102.663 2057.846 0.04523 0.0002403 110.773 932.8894 0.04366 0.0007597 110.105 560.5025 0.01749 0.0004558 106.586 355.0031 0.008722 0.0001633
103.66 2087.216 0.05281 0.0002695 111.95 944.805 0.05407 0.0009457 111.288 565.5226 0.02041 0.0009803 107.919 358.0273 0.00954 0.0006205
104.639 2116.586 0.0621 0.000369 113.117 956.7206 0.06624 0.001104 112.48 570.5427 0.02429 0.0008293 109.224 361.0514 0.01019 0.0006482
105.6249 2145.956 0.07309 0.0003914 114.289 968.6361 0.0796 0.001179 113.665 575.5628 0.02857 0.001287 110.547 364.0755 0.0111 0.0009701
106.591 2175.326 0.08478 0.000455 115.456 980.5517 0.09444 0.001337 114.846 580.5829 0.03511 0.001267 111.8806 367.0996 0.01367 0.001191
107.583 2204.695 0.09739 0.0004632 116.6073 992.4673 0.1117 0.001398 116.034 585.603 0.04265 0.001972 113.218 370.1237 0.01547 0.001014
108.593 2234.065 0.1128 0.0005055 117.733 1004.38 0.1305 0.001622 117.216 590.6231 0.05145 0.002147 114.541 373.1478 0.01779 0.0016
109.575 2263.435 0.1286 0.000591 118.879 1016.3 0.1505 0.001907 118.406 595.6432 0.06361 0.00275 115.907 376.172 0.02077 0.0007198
110.565 2292.805 0.1469 0.0006568 120.001 1028.21 0.1791 0.001931 119.599 600.6633 0.07681 0.00232 117.251 379.1961 0.02513 0.0007906
111.555 2322.175 0.1686 0.0008275 121.136 1040.13 0.2061 0.002562 120.784 605.6834 0.08871 0.002533 118.618 382.2202 0.02885 0.001368
112.531 2351.545 0.1917 0.0007873 122.239 1052.05 0.2364 0.002581 121.988 610.7035 0.1029 0.003051 119.966 385.2443 0.03449 0.001943
113.51 2380.915 0.2157 0.0008406 123.363 1063.96 0.2689 0.002755 123.165 615.7236 0.1192 0.003742 121.327 388.2684 0.04175 0.002093
114.502 2410.284 0.2429 0.001043 124.474 1075.88 0.3044 0.003086 124.354 620.7437 0.1382 0.003947 122.698 391.2926 0.05073 0.004418
115.492 2439.654 0.2744 0.001019 125.553 1087.792 0.3432 0.003378 125.56 625.7638 0.1596 0.004701 124.092 394.3167 0.06511 0.005751
116.478 2469.024 0.3072 0.001128 126.655 1099.71 0.3845 0.003541 126.766 630.7839 0.1844 0.005289 125.485 397.3408 0.08362 0.006536
117.463 2498.394 0.3399 0.001195 127.757 1111.62 0.429 0.003896 127.97 635.804 0.2133 0.006149 126.8939 400.3649 0.1034 0.005629
118.458 2527.764 0.3758 0.001262 128.842 1123.54 0.4769 0.004163 129.19 640.8241 0.2457 0.006836 128.287 403.389 0.1212 0.006331
119.449 2557.134 0.4154 0.001343 129.917 1135.45 0.5265 0.004194 130.4 645.8442 0.2816 0.007295 129.688 406.4131 0.1411 0.007337
120.444 2586.504 0.4557 0.001342 130.975 1147.37 0.5762 0.004286 131.629 650.8643 0.3226 0.008644 131.114 409.4373 0.1649 0.007834
121.406 2615.873 0.4999 0.001527 132.036 1159.29 0.6284 0.004318 132.841 655.8844 0.3687 0.009745 132.5566 412.4614 0.1921 0.01055
122.404 2645.243 0.5442 0.001565 133.081 1171.2 0.6802 0.004312 134.067 660.9045 0.4203 0.01076 133.987 415.4855 0.2244 0.01053
123.391 2674.613 0.5889 0.001538 134.116 1183.12 0.7308 0.004133 135.288 665.9246 0.4754 0.0103 135.436 418.5096 0.2615 0.01248
124.359 2703.983 0.6348 0.001511 135.153 1195.03 0.7795 0.003992 136.513 670.9447 0.5334 0.01225 136.897 421.5337 0.3017 0.01408
125.349 2733.353 0.6817 0.001538 136.167 1206.95 0.8244 0.0037 137.739 675.9648 0.5942 0.01215 138.3529 424.5578 0.3475 0.01596
126.32 2762.723 0.727 0.001481 137.1814 1218.86 0.8669 0.003298 138.959 680.9849 0.6556 0.01226 139.834 427.582 0.3941 0.01777
127.293 2792.092 0.7704 0.001486 138.165 1230.779 0.9042 0.002994 140.177 686.005 0.7173 0.01172 141.296 430.6061 0.45 0.01899
128.257 2821.462 0.812 0.001374 139.143 1242.69 0.9378 0.002515 141.401 691.0251 0.7721 0.01094 142.792 433.6302 0.5092 0.02011
129.2211 2850.832 0.851 0.001309 140.117 1254.61 0.9648 0.001912 142.608 696.0452 0.8253 0.01016 144.2815 436.6543 0.5723 0.0221
130.184 2880.202 0.8874 0.001177 141.071 1266.53 0.9843 0.001416 143.797 701.0653 0.8714 0.00851 145.789 439.6784 0.6372 0.02179
131.135 2909.572 0.9178 0.0009095 142.019 1278.44 0.9951 0.000323 144.9627 706.0854 0.9108 0.007432 147.289 442.7025 0.702 0.02102
132.101 2938.942 0.9433 0.0009005 142.946 1290.36 0.9973 0.0001235 146.1255 711.1055 0.9431 0.006199 148.785 445.7267 0.7653 0.02033
133.047 2968.312 0.9628 0.0005303 143.868 1302.27 0.9983 -5.137e-07 147.268 716.1256 0.9701 0.004508 150.297 448.7508 0.8214 0.01982
133.982 2997.681 0.9772 0.0004478 144.7799 1314.19 0.9991 1.467e-05 148.385 721.1457 0.9892 0.003191 151.797 451.7749 0.8763 0.01704
134.935 3027.051 0.989 0.000304 145.665 1326.1 0.9992 9.146e-05 149.479 726.1658 0.9976 0.0006551 153.3 454.799 0.9256 0.01468
135.913 3056.421 0.9971 0.0001625 146.603 1338.02 0.9995 -4.951e-07 150.55 731.1859 0.9988 9.219e-05 154.79 457.8231 0.9652 0.01079
136.876 3085.791 0.9988 6.268e-05 147.512 1349.93 1 -7.994e-06 151.617 736.206 1 0.0001434 156.283 460.8473 0.9895 0.00465
137.833 3115.161 0.9991 -3.698e-05 148.426 1361.85 1 5.197e-17 152.649 741.2261 1 3.418e-15 157.749 463.8714 0.997 0.0007309
138.802 3144.531 0.9988 -6.961e-07 149.368 1373.766 0.9997 -0.0002023 153.701 746.2462 1 2.002e-29 159.218 466.8955 0.9986 0.0005788
139.789 3173.901 0.9992 1.557e-05 150.306 1385.68 1 1.498e-07 154.715 751.2663 1 -5.347e-15 160.6573 469.9196 0.9991 0.0007134
140.78 3203.27 1 1.68e-06 151.247 1397.6 1 -8.042e-08 155.723 756.2864 1 0.0001522 162.1 472.9437 1 -4.889e-06
141.774 3232.64 0.9992 -3.342e-05 152.189 1409.51 1 0.0002157 156.728 761.3065 1 -4.366e-09 163.531 475.9678 1 -2.504e-13
142.76 3262.01 0.9997 2.801e-05 153.128 1421.43 1 -2.007e-18 157.729 766.3266 1 -3.215e-05 164.962 478.992 1 5.516e-22
143.092 3271.8 1 6.397e-05 153.448 1425.4 1 6.367e-21 158.076 768 1 9.879e-05 165.423 480 1 -3.207e-24